{
  "resourceType": "CarePlan",
  "id": "f203",
  "text": {
    "status": "generated",
    "div": "<div><p><b>Generated Narrative with Details</b></p><p><b>id</b>: f203</p><p><b>contained</b>: </p><p><b>subject</b>: <a>Roel</a></p><p><b>status</b>: completed</p><p><b>period</b>: 14/04/2013 --&gt; 21/04/2013</p><p><b>modified</b>: 11/03/2013</p><p><b>addresses</b>: <a>Roel's sepsis</a></p><blockquote><p><b>participant</b></p><p><b>role</b>: Review of care plan <span>(Details : {SNOMED CT code '425268008' = 'Review of care plan (procedure)', given as 'Review of care plan'})</span></p><p><b>member</b>: <a>Dokter Bronsig</a></p></blockquote><blockquote><p><b>participant</b></p><p><b>role</b>: Radiographic imaging <span>(Details : {SNOMED CT code '278110001' = 'Radiographic imaging - action (qualifier value)', given as 'Radiographic imaging'})</span></p><p><b>member</b>: <a>Luigi Maas</a></p></blockquote><p><b>goal</b>: id: goal; Roel; description: Check whether further treatment of sepsis/pulmonary abcess is required; status: cancelled</p><blockquote><p><b>activity</b></p><h3>Details</h3><table><tr><td>-</td><td><b>Category</b></td><td><b>Code</b></td><td><b>Status</b></td><td><b>Prohibited</b></td></tr><tr><td>*</td><td>Observation <span>(Details : {http://hl7.org/fhir/care-plan-activity-category code 'observation' = 'Observation)</span></td><td>High resolution computed tomography of lungs <span>(Details : {SNOMED CT code '241541005' = 'High resolution computed tomography of lungs (procedure)', given as 'High resolution computed tomography of lungs'})</span></td><td>not-started</td><td>false</td></tr></table></blockquote></div>"
  },
  "contained": [
    {
      "resourceType": "Goal",
      "id": "goal",
      "subject": {
        "reference": "Patient/f201",
        "display": "Roel"
      },
      "description": "Check whether further treatment of sepsis/pulmonary abcess is required",
      "status": "cancelled"
    }
  ],
  "subject": {
    "reference": "Patient/f201",
    "_reference": {
      "fhir_comments": [
        "  It entails Roel's careplan  "
      ]
    },
    "display": "Roel"
  },
  "status": "completed",
  "period": {
    "start": "2013-04-14",
    "end": "2013-04-21"
  },
  "modified": "2013-03-11",
  "addresses": [
    {
      "reference": "Condition/f203",
      "display": "Roel's sepsis"
    }
  ],
  "participant": [
    {
      "role": {
        "coding": [
          {
            "system": "http://snomed.info/sct",
            "code": "425268008",
            "display": "Review of care plan"
          }
        ]
      },
      "member": {
        "reference": "Practitioner/f201",
        "display": "Dokter Bronsig"
      }
    },
    {
      "role": {
        "coding": [
          {
            "system": "http://snomed.info/sct",
            "code": "278110001",
            "display": "Radiographic imaging"
          }
        ]
      },
      "member": {
        "reference": "Practitioner/f202",
        "display": "Luigi Maas"
      }
    }
  ],
  "goal": [
    {
      "reference": "#goal"
    }
  ],
  "activity": [
    {
      "detail": {
        "category": {
          "coding": [
            {
              "system": "http://hl7.org/fhir/care-plan-activity-category",
              "code": "observation"
            }
          ]
        },
        "code": {
          "coding": [
            {
              "system": "http://snomed.info/sct",
              "code": "241541005",
              "display": "High resolution computed tomography of lungs"
            }
          ]
        },
        "status": "not-started",
        "prohibited": false
      }
    }
  ]
}